<?xml-model href="http://hl7.org/fhir/STU3/bundle.sch" type="application/xml" schematypens="http://purl.oclc.org/dsdl/schematron"?><Bundle xmlns="http://hl7.org/fhir"
        xmlns:xsi="http://www.w3.org/2001/XMLSchema-instance"
        xsi:schemaLocation="http://hl7.org/fhir http://hl7.org/fhir/STU3/bundle.xsd">
   <id value="8daefd83-1086-11ec-1247-020000000000"/>
   <type value="searchset"/>
   <total value="4"/>
   <link>
      <relation value="self"/>
      <url value="http://dummy.nictiz.nl/dummyquery"/>
   </link>
   <entry>
      <fullUrl value="urn:uuid:8daf0da0-1086-11ec-1247-020000000000"/>
      <resource>
         <AllergyIntolerance>
            <meta>
               <profile value="http://nictiz.nl/fhir/StructureDefinition/mp612-AllergyIntoleranceToFHIRConversion"/>
            </meta>
            <text>
               <status value="extensions"/>
               <div xmlns="http://www.w3.org/1999/xhtml">
                  <table>
                     <caption>Allergie/intolerantie. Patiënt: Maria Christina M. Marieke van XXX_Stalewska. Id: CIO_01_01 (urn:oid:2.16.840.1.113883.2.4.3.11.999.26.1.1), Categorie: <span title="neiging tot ongewenste reactie op geneesmiddel (419511003 - SNOMED CT)">neiging tot ongewenste reactie op geneesmiddel</span>, Status: actief / bevestigd<span style="display: block;">Ingevoerd door: I.N. ter Nist || Medisch specialisten, inwendige geneeskunde || Test Medisch Centrum</span>
                     </caption>
                     <tfoot>
                        <tr>
                           <td colspan="2">Rode vlekken en jeuk. Geldt alleen voor dit merk.</td>
                        </tr>
                     </tfoot>
                     <tbody>
                        <tr>
                           <th>Code</th>
                           <td>
                              <span title="AMOXI/CLAV SANDOZ TABLET 500/125MG (1127039 - G-Standaard HPK)">AMOXI/CLAV SANDOZ TABLET 500/125MG</span>
                           </td>
                        </tr>
                        <tr>
                           <th>Informant</th>
                           <td>9 augustus 2021 - Maria Christina M. Marieke van XXX_Stalewska</td>
                        </tr>
                        <tr>
                           <th>Eerste symptomen</th>
                           <td>20 juli 2021</td>
                        </tr>
                     </tbody>
                  </table>
               </div>
            </text>
            <identifier>
               <system value="urn:oid:2.16.840.1.113883.2.4.3.11.999.26.1.1"/>
               <value value="CIO_01_01"/>
            </identifier>
            <clinicalStatus value="active">
               <extension url="http://nictiz.nl/fhir/StructureDefinition/code-specification">
                  <valueCodeableConcept>
                     <coding>
                        <system value="http://hl7.org/fhir/v3/ActStatus"/>
                        <code value="active"/>
                        <display value="Actief"/>
                     </coding>
                  </valueCodeableConcept>
               </extension>
            </clinicalStatus>
            <verificationStatus value="confirmed"/>
            <category value="medication">
               <extension url="http://nictiz.nl/fhir/StructureDefinition/code-specification">
                  <valueCodeableConcept>
                     <coding>
                        <system value="http://snomed.info/sct"/>
                        <code value="419511003"/>
                        <display value="neiging tot ongewenste reactie op geneesmiddel"/>
                     </coding>
                  </valueCodeableConcept>
               </extension>
            </category>
            <code>
               <coding>
                  <system value="urn:oid:2.16.840.1.113883.2.4.4.7"/>
                  <code value="1127039"/>
                  <display value="AMOXI/CLAV SANDOZ TABLET 500/125MG"/>
               </coding>
            </code>
            <patient>
               <reference value="urn:uuid:8daefd8b-1086-11ec-1247-020000000000"/>
               <display value="Maria Christina M. Marieke van XXX_Stalewska"/>
            </patient>
            <onsetDateTime value="2021-07-20"/>
            <assertedDate value="2021-08-09"/>
            <recorder>
               <extension url="http://nictiz.nl/fhir/StructureDefinition/practitionerrole-reference">
                  <valueReference>
                     <reference value="urn:uuid:8daf1049-1086-11ec-1247-020000000000"/>
                     <display value="I.N. ter Nist || Medisch specialisten, inwendige geneeskunde || Test Medisch Centrum"/>
                  </valueReference>
               </extension>
               <reference value="urn:oid:2.16.528.1.1007.3.1.111111112"/>
               <display value="I.N. ter Nist"/>
            </recorder>
            <asserter>
               <reference value="urn:uuid:8daefd8b-1086-11ec-1247-020000000000"/>
               <display value="Maria Christina M. Marieke van XXX_Stalewska"/>
            </asserter>
            <note>
               <text value="Rode vlekken en jeuk. Geldt alleen voor dit merk."/>
            </note>
         </AllergyIntolerance>
      </resource>
      <search>
         <mode value="match"/>
      </search>
   </entry>
   <entry>
      <fullUrl value="urn:uuid:8daf0fc1-1086-11ec-1247-020000000000"/>
      <resource>
         <AllergyIntolerance>
            <meta>
               <profile value="http://nictiz.nl/fhir/StructureDefinition/mp612-AllergyIntoleranceToFHIRConversion"/>
            </meta>
            <text>
               <status value="extensions"/>
               <div xmlns="http://www.w3.org/1999/xhtml">
                  <table>
                     <caption>Allergie/intolerantie. Patiënt: Maria Christina M. Marieke van XXX_Stalewska. Id: CIO_01_02 (urn:oid:2.16.840.1.113883.2.4.3.11.999.26.1.1), Categorie: <span title="neiging tot ongewenste reactie op geneesmiddel (419511003 - SNOMED CT)">neiging tot ongewenste reactie op geneesmiddel</span>, Status: actief / bevestigd<span style="display: block;">Ingevoerd door: I.N. ter Nist || Medisch specialisten, inwendige geneeskunde || Test Medisch Centrum</span>
                     </caption>
                     <tfoot>
                        <tr>
                           <td colspan="2">Overgevoeligheid leidt tot paarse vlekjes op de huid en jeuk.</td>
                        </tr>
                     </tfoot>
                     <tbody>
                        <tr>
                           <th>Code</th>
                           <td>
                              <span title="Amoxicilline (23167 - G-Standaard Bestand 750)">Amoxicilline</span>
                           </td>
                        </tr>
                        <tr>
                           <th>Informant</th>
                           <td>10 juli 2021 - I.N. ter Nist || Medisch specialisten, inwendige geneeskunde || Test Medisch Centrum</td>
                        </tr>
                        <tr>
                           <th>Eerste symptomen</th>
                           <td>31 mei 2021</td>
                        </tr>
                     </tbody>
                  </table>
               </div>
            </text>
            <identifier>
               <system value="urn:oid:2.16.840.1.113883.2.4.3.11.999.26.1.1"/>
               <value value="CIO_01_02"/>
            </identifier>
            <clinicalStatus value="active">
               <extension url="http://nictiz.nl/fhir/StructureDefinition/code-specification">
                  <valueCodeableConcept>
                     <coding>
                        <system value="http://hl7.org/fhir/v3/ActStatus"/>
                        <code value="active"/>
                        <display value="Actief"/>
                     </coding>
                  </valueCodeableConcept>
               </extension>
            </clinicalStatus>
            <verificationStatus value="confirmed"/>
            <category value="medication">
               <extension url="http://nictiz.nl/fhir/StructureDefinition/code-specification">
                  <valueCodeableConcept>
                     <coding>
                        <system value="http://snomed.info/sct"/>
                        <code value="419511003"/>
                        <display value="neiging tot ongewenste reactie op geneesmiddel"/>
                     </coding>
                  </valueCodeableConcept>
               </extension>
            </category>
            <code>
               <coding>
                  <system value="urn:oid:2.16.840.1.113883.2.4.4.1.750"/>
                  <code value="23167"/>
                  <display value="Amoxicilline"/>
               </coding>
            </code>
            <patient>
               <reference value="urn:uuid:8daefd8b-1086-11ec-1247-020000000000"/>
               <display value="Maria Christina M. Marieke van XXX_Stalewska"/>
            </patient>
            <onsetDateTime value="2021-05-31"/>
            <assertedDate value="2021-07-10"/>
            <recorder>
               <extension url="http://nictiz.nl/fhir/StructureDefinition/practitionerrole-reference">
                  <valueReference>
                     <reference value="urn:uuid:8daf1049-1086-11ec-1247-020000000000"/>
                     <display value="I.N. ter Nist || Medisch specialisten, inwendige geneeskunde || Test Medisch Centrum"/>
                  </valueReference>
               </extension>
               <reference value="urn:oid:2.16.528.1.1007.3.1.111111112"/>
               <display value="I.N. ter Nist"/>
            </recorder>
            <asserter>
               <extension url="http://nictiz.nl/fhir/StructureDefinition/practitionerrole-reference">
                  <valueReference>
                     <reference value="urn:uuid:8daf1049-1086-11ec-1247-020000000000"/>
                     <display value="I.N. ter Nist || Medisch specialisten, inwendige geneeskunde || Test Medisch Centrum"/>
                  </valueReference>
               </extension>
               <reference value="urn:oid:2.16.528.1.1007.3.1.111111112"/>
               <display value="I.N. ter Nist"/>
            </asserter>
            <note>
               <text value="Overgevoeligheid leidt tot paarse vlekjes op de huid en jeuk."/>
            </note>
         </AllergyIntolerance>
      </resource>
      <search>
         <mode value="match"/>
      </search>
   </entry>
   <entry>
      <fullUrl value="urn:uuid:8daf0fee-1086-11ec-1247-020000000000"/>
      <resource>
         <AllergyIntolerance>
            <meta>
               <profile value="http://nictiz.nl/fhir/StructureDefinition/mp612-AllergyIntoleranceToFHIRConversion"/>
            </meta>
            <text>
               <status value="extensions"/>
               <div xmlns="http://www.w3.org/1999/xhtml">
                  <table>
                     <caption>Allergie/intolerantie. Patiënt: Maria Christina M. Marieke van XXX_Stalewska. Id: CIO_01_03 (urn:oid:2.16.840.1.113883.2.4.3.11.999.26.1.1), Categorie: <span title="neiging tot ongewenste reactie op geneesmiddel (419511003 - SNOMED CT)">neiging tot ongewenste reactie op geneesmiddel</span>, Status: actief / bevestigd<span style="display: block;">Ingevoerd door: S. Calpel || Medisch specialisten, chirurgie || Test Medisch Centrum</span>
                     </caption>
                     <tfoot>
                        <tr>
                           <td colspan="2">Allergie leidt tot jeuk. Geconstateerd tijdens operatie</td>
                        </tr>
                     </tfoot>
                     <tbody>
                        <tr>
                           <th>Code</th>
                           <td>
                              <span title="Amoxicilline oraal (16322 - G-Standaard Bestand 725)">Amoxicilline oraal</span>
                           </td>
                        </tr>
                        <tr>
                           <th>Informant</th>
                           <td>10 juni 2021 - S. Calpel || Medisch specialisten, chirurgie || Test Medisch Centrum</td>
                        </tr>
                        <tr>
                           <th>Eerste symptomen</th>
                           <td>11 april 2021</td>
                        </tr>
                     </tbody>
                  </table>
               </div>
            </text>
            <identifier>
               <system value="urn:oid:2.16.840.1.113883.2.4.3.11.999.26.1.1"/>
               <value value="CIO_01_03"/>
            </identifier>
            <clinicalStatus value="active">
               <extension url="http://nictiz.nl/fhir/StructureDefinition/code-specification">
                  <valueCodeableConcept>
                     <coding>
                        <system value="http://hl7.org/fhir/v3/ActStatus"/>
                        <code value="active"/>
                        <display value="Actief"/>
                     </coding>
                  </valueCodeableConcept>
               </extension>
            </clinicalStatus>
            <verificationStatus value="confirmed"/>
            <category value="medication">
               <extension url="http://nictiz.nl/fhir/StructureDefinition/code-specification">
                  <valueCodeableConcept>
                     <coding>
                        <system value="http://snomed.info/sct"/>
                        <code value="419511003"/>
                        <display value="neiging tot ongewenste reactie op geneesmiddel"/>
                     </coding>
                  </valueCodeableConcept>
               </extension>
            </category>
            <code>
               <coding>
                  <system value="urn:oid:2.16.840.1.113883.2.4.4.1.725"/>
                  <code value="16322"/>
                  <display value="Amoxicilline oraal"/>
               </coding>
            </code>
            <patient>
               <reference value="urn:uuid:8daefd8b-1086-11ec-1247-020000000000"/>
               <display value="Maria Christina M. Marieke van XXX_Stalewska"/>
            </patient>
            <onsetDateTime value="2021-04-11"/>
            <assertedDate value="2021-06-10"/>
            <recorder>
               <extension url="http://nictiz.nl/fhir/StructureDefinition/practitionerrole-reference">
                  <valueReference>
                     <reference value="urn:uuid:8daf109f-1086-11ec-1247-020000000000"/>
                     <display value="S. Calpel || Medisch specialisten, chirurgie || Test Medisch Centrum"/>
                  </valueReference>
               </extension>
               <reference value="urn:oid:2.16.528.1.1007.3.1.333333334"/>
               <display value="S. Calpel"/>
            </recorder>
            <asserter>
               <extension url="http://nictiz.nl/fhir/StructureDefinition/practitionerrole-reference">
                  <valueReference>
                     <reference value="urn:uuid:8daf109f-1086-11ec-1247-020000000000"/>
                     <display value="S. Calpel || Medisch specialisten, chirurgie || Test Medisch Centrum"/>
                  </valueReference>
               </extension>
               <reference value="urn:oid:2.16.528.1.1007.3.1.333333334"/>
               <display value="S. Calpel"/>
            </asserter>
            <note>
               <text value="Allergie leidt tot jeuk. Geconstateerd tijdens operatie"/>
            </note>
         </AllergyIntolerance>
      </resource>
      <search>
         <mode value="match"/>
      </search>
   </entry>
   <entry>
      <fullUrl value="urn:uuid:8daf101b-1086-11ec-1247-020000000000"/>
      <resource>
         <AllergyIntolerance>
            <meta>
               <profile value="http://nictiz.nl/fhir/StructureDefinition/mp612-AllergyIntoleranceToFHIRConversion"/>
            </meta>
            <text>
               <status value="additional"/>
               <div xmlns="http://www.w3.org/1999/xhtml">Medicatiegerelateerde allergie/intolerantie voor patiënt Maria Christina van XXX_Stalewska. Status is actief. Begindatum T - 200 dagen.
Informant: Peter van den Herik.
Auteur O. Orthopeed [specialisme: Medisch specialisten, orthopedie].
Datum: T - 120 dagen.
Veroorzakende stof: Penicillines.

</div>
            </text>
            <identifier>
               <system value="urn:oid:2.16.840.1.113883.2.4.3.11.999.26.1.1"/>
               <value value="CIO_01_04"/>
            </identifier>
            <clinicalStatus value="active">
               <extension url="http://nictiz.nl/fhir/StructureDefinition/code-specification">
                  <valueCodeableConcept>
                     <coding>
                        <system value="http://hl7.org/fhir/v3/ActStatus"/>
                        <code value="active"/>
                        <display value="Actief"/>
                     </coding>
                  </valueCodeableConcept>
               </extension>
            </clinicalStatus>
            <verificationStatus value="confirmed"/>
            <category value="medication">
               <extension url="http://nictiz.nl/fhir/StructureDefinition/code-specification">
                  <valueCodeableConcept>
                     <coding>
                        <system value="http://snomed.info/sct"/>
                        <code value="419511003"/>
                        <display value="neiging tot ongewenste reactie op geneesmiddel"/>
                     </coding>
                  </valueCodeableConcept>
               </extension>
            </category>
            <code>
               <coding>
                  <system value="urn:oid:2.16.840.1.113883.2.4.4.1.902.122"/>
                  <code value="35"/>
                  <display value="Penicillines"/>
               </coding>
            </code>
            <patient>
               <reference value="urn:uuid:8daefd8b-1086-11ec-1247-020000000000"/>
               <display value="Maria Christina M. Marieke van XXX_Stalewska"/>
            </patient>
            <onsetDateTime value="2021-02-20"/>
            <assertedDate value="2021-05-11"/>
            <recorder>
               <extension url="http://nictiz.nl/fhir/StructureDefinition/practitionerrole-reference">
                  <valueReference>
                     <reference value="urn:uuid:8daf1075-1086-11ec-1247-020000000000"/>
                     <display value="O. Orthopeed || Medisch specialisten, orthopedie || Test Medisch Centrum"/>
                  </valueReference>
               </extension>
               <reference value="urn:oid:2.16.528.1.1007.3.1.222222223"/>
               <display value="O. Orthopeed"/>
            </recorder>
            <asserter>
               <reference value="urn:uuid:8daf10e2-1086-11ec-1247-020000000000"/>
               <display value="Peter P.J. Peter van den Herik van XXX_Stalewska"/>
            </asserter>
         </AllergyIntolerance>
      </resource>
      <search>
         <mode value="match"/>
      </search>
   </entry>
   <entry>
      <fullUrl value="urn:uuid:8daefd8b-1086-11ec-1247-020000000000"/>
      <resource>
         <Patient>
            <meta>
               <profile value="http://fhir.nl/fhir/StructureDefinition/nl-core-patient"/>
            </meta>
            <text>
               <status value="extensions"/>
               <div xmlns="http://www.w3.org/1999/xhtml">
                  <div>Id <i>afgeschermd (ontbrekend gegeven)</i> (BSN), Maria Christina M. van XXX_Stalewska (Marieke), Vrouw, 1 augustus 1964</div>
                  <div>
                     <a href="tel:06-12345678">06-12345678</a> (Tel Mobiel), <a href="mailto:XXX_Stalewska@123mail.com">XXX_Stalewska@123mail.com</a> (E-mail Privé)</div>
                  <div>Knolweg 1001 b, 9999XX Stitswerd Het Hogeland (Bezoek)</div>
               </div>
            </text>
            <identifier>
               <system value="http://fhir.nl/fhir/NamingSystem/bsn"/>
               <value>
                  <extension url="http://hl7.org/fhir/StructureDefinition/data-absent-reason">
                     <valueCode value="masked"/>
                  </extension>
               </value>
            </identifier>
            <name>
               <extension url="http://hl7.org/fhir/StructureDefinition/humanname-assembly-order">
                  <valueCode value="NL1"/>
               </extension>
               <family value="van XXX_Stalewska">
                  <extension url="http://hl7.org/fhir/StructureDefinition/humanname-own-prefix">
                     <valueString value="van"/>
                  </extension>
                  <extension url="http://hl7.org/fhir/StructureDefinition/humanname-own-name">
                     <valueString value="XXX_Stalewska"/>
                  </extension>
               </family>
               <given value="Maria Christina">
                  <extension url="http://hl7.org/fhir/StructureDefinition/iso21090-EN-qualifier">
                     <valueCode value="BR"/>
                  </extension>
               </given>
               <given value="M.">
                  <extension url="http://hl7.org/fhir/StructureDefinition/iso21090-EN-qualifier">
                     <valueCode value="IN"/>
                  </extension>
               </given>
               <given value="Marieke">
                  <extension url="http://hl7.org/fhir/StructureDefinition/iso21090-EN-qualifier">
                     <valueCode value="CL"/>
                  </extension>
               </given>
            </name>
            <telecom>
               <system value="phone">
                  <extension url="http://nictiz.nl/fhir/StructureDefinition/code-specification">
                     <valueCodeableConcept>
                        <coding>
                           <system value="http://hl7.org/fhir/v3/AddressUse"/>
                           <code value="MC"/>
                           <display value="Mobiel telefoonnummer"/>
                        </coding>
                     </valueCodeableConcept>
                  </extension>
               </system>
               <value value="06-12345678"/>
               <use value="mobile">
                  <extension url="http://nictiz.nl/fhir/StructureDefinition/code-specification">
                     <valueCodeableConcept>
                        <coding>
                           <system value="http://hl7.org/fhir/v3/AddressUse"/>
                           <code value="HP"/>
                           <display value="Telefoonnummer thuis"/>
                        </coding>
                     </valueCodeableConcept>
                  </extension>
               </use>
            </telecom>
            <telecom>
               <system value="email"/>
               <value value="XXX_Stalewska@123mail.com"/>
               <use value="home">
                  <extension url="http://nictiz.nl/fhir/StructureDefinition/code-specification">
                     <valueCodeableConcept>
                        <coding>
                           <system value="http://hl7.org/fhir/v3/AddressUse"/>
                           <code value="HP"/>
                           <display value="Privé e-mailadres"/>
                        </coding>
                     </valueCodeableConcept>
                  </extension>
               </use>
            </telecom>
            <gender value="female">
               <extension url="http://nictiz.nl/fhir/StructureDefinition/code-specification">
                  <valueCodeableConcept>
                     <coding>
                        <system value="http://hl7.org/fhir/v3/AdministrativeGender"/>
                        <code value="F"/>
                        <display value="Vrouw"/>
                     </coding>
                  </valueCodeableConcept>
               </extension>
            </gender>
            <birthDate value="1964-08-01"/>
            <address>
               <extension url="http://nictiz.nl/fhir/StructureDefinition/zib-AddressInformation-AddressType">
                  <valueCodeableConcept>
                     <coding>
                        <system value="http://hl7.org/fhir/v3/AddressUse"/>
                        <code value="PHYS"/>
                        <display value="Woon-/verblijfadres"/>
                     </coding>
                  </valueCodeableConcept>
               </extension>
               <extension url="http://hl7.org/fhir/StructureDefinition/iso21090-AD-use">
                  <valueCode value="PHYS"/>
               </extension>
               <use value="home"/>
               <type value="physical"/>
               <line value="Knolweg 1001 b">
                  <extension url="http://hl7.org/fhir/StructureDefinition/iso21090-ADXP-streetName">
                     <valueString value="Knolweg"/>
                  </extension>
                  <extension url="http://hl7.org/fhir/StructureDefinition/iso21090-ADXP-houseNumber">
                     <valueString value="1001"/>
                  </extension>
                  <extension url="http://hl7.org/fhir/StructureDefinition/iso21090-ADXP-buildingNumberSuffix">
                     <valueString value="b"/>
                  </extension>
               </line>
               <city value="Stitswerd"/>
               <district value="Het Hogeland"/>
               <postalCode value="9999XX"/>
            </address>
         </Patient>
      </resource>
      <search>
         <mode value="include"/>
      </search>
   </entry>
   <entry>
      <fullUrl value="urn:oid:2.16.528.1.1007.3.1.111111112"/>
      <resource>
         <Practitioner>
            <meta>
               <profile value="http://fhir.nl/fhir/StructureDefinition/nl-core-practitioner"/>
            </meta>
            <text>
               <status value="extensions"/>
               <div xmlns="http://www.w3.org/1999/xhtml">
                  <div>Id 111111112 (UZI-NR-PERS), I.N. ter Nist</div>
                  <div>Valkendael 45 1 hoog, 6245HK Maastricht (WP)</div>
               </div>
            </text>
            <identifier>
               <system value="http://fhir.nl/fhir/NamingSystem/uzi-nr-pers"/>
               <value value="111111112"/>
            </identifier>
            <name>
               <extension url="http://hl7.org/fhir/StructureDefinition/humanname-assembly-order">
                  <valueCode value="NL1"/>
               </extension>
               <family value="ter Nist">
                  <extension url="http://hl7.org/fhir/StructureDefinition/humanname-own-prefix">
                     <valueString value="ter"/>
                  </extension>
                  <extension url="http://hl7.org/fhir/StructureDefinition/humanname-own-name">
                     <valueString value="Nist"/>
                  </extension>
               </family>
               <given value="I.N.">
                  <extension url="http://hl7.org/fhir/StructureDefinition/iso21090-EN-qualifier">
                     <valueCode value="IN"/>
                  </extension>
               </given>
            </name>
            <address>
               <extension url="http://nictiz.nl/fhir/StructureDefinition/zib-AddressInformation-AddressType">
                  <valueCodeableConcept>
                     <coding>
                        <system value="http://hl7.org/fhir/v3/AddressUse"/>
                        <code value="WP"/>
                        <display value="Werkadres"/>
                     </coding>
                  </valueCodeableConcept>
               </extension>
               <use value="work"/>
               <line value="Valkendael 45 1 hoog">
                  <extension url="http://hl7.org/fhir/StructureDefinition/iso21090-ADXP-streetName">
                     <valueString value="Valkendael"/>
                  </extension>
                  <extension url="http://hl7.org/fhir/StructureDefinition/iso21090-ADXP-houseNumber">
                     <valueString value="45"/>
                  </extension>
                  <extension url="http://hl7.org/fhir/StructureDefinition/iso21090-ADXP-buildingNumberSuffix">
                     <valueString value="1 hoog"/>
                  </extension>
               </line>
               <city value="Maastricht"/>
               <postalCode value="6245HK"/>
            </address>
         </Practitioner>
      </resource>
      <search>
         <mode value="include"/>
      </search>
   </entry>
   <entry>
      <fullUrl value="urn:oid:2.16.528.1.1007.3.1.222222223"/>
      <resource>
         <Practitioner>
            <meta>
               <profile value="http://fhir.nl/fhir/StructureDefinition/nl-core-practitioner"/>
            </meta>
            <text>
               <status value="extensions"/>
               <div xmlns="http://www.w3.org/1999/xhtml">
                  <div>Id 222222223 (UZI-NR-PERS), O. Orthopeed</div>
                  <div>Valkendael 45 2 hoog, 6245HK Maastricht (WP)</div>
               </div>
            </text>
            <identifier>
               <system value="http://fhir.nl/fhir/NamingSystem/uzi-nr-pers"/>
               <value value="222222223"/>
            </identifier>
            <name>
               <extension url="http://hl7.org/fhir/StructureDefinition/humanname-assembly-order">
                  <valueCode value="NL1"/>
               </extension>
               <family value="Orthopeed">
                  <extension url="http://hl7.org/fhir/StructureDefinition/humanname-own-name">
                     <valueString value="Orthopeed"/>
                  </extension>
               </family>
               <given value="O.">
                  <extension url="http://hl7.org/fhir/StructureDefinition/iso21090-EN-qualifier">
                     <valueCode value="IN"/>
                  </extension>
               </given>
            </name>
            <address>
               <extension url="http://nictiz.nl/fhir/StructureDefinition/zib-AddressInformation-AddressType">
                  <valueCodeableConcept>
                     <coding>
                        <system value="http://hl7.org/fhir/v3/AddressUse"/>
                        <code value="WP"/>
                        <display value="Werkadres"/>
                     </coding>
                  </valueCodeableConcept>
               </extension>
               <use value="work"/>
               <line value="Valkendael 45 2 hoog">
                  <extension url="http://hl7.org/fhir/StructureDefinition/iso21090-ADXP-streetName">
                     <valueString value="Valkendael"/>
                  </extension>
                  <extension url="http://hl7.org/fhir/StructureDefinition/iso21090-ADXP-houseNumber">
                     <valueString value="45"/>
                  </extension>
                  <extension url="http://hl7.org/fhir/StructureDefinition/iso21090-ADXP-buildingNumberSuffix">
                     <valueString value="2 hoog"/>
                  </extension>
               </line>
               <city value="Maastricht"/>
               <postalCode value="6245HK"/>
            </address>
         </Practitioner>
      </resource>
      <search>
         <mode value="include"/>
      </search>
   </entry>
   <entry>
      <fullUrl value="urn:oid:2.16.528.1.1007.3.1.333333334"/>
      <resource>
         <Practitioner>
            <meta>
               <profile value="http://fhir.nl/fhir/StructureDefinition/nl-core-practitioner"/>
            </meta>
            <text>
               <status value="extensions"/>
               <div xmlns="http://www.w3.org/1999/xhtml">
                  <div>Id 333333334 (UZI-NR-PERS), S. Calpel</div>
                  <div>Valkendael 45 3 hoog, 6245HK Maastricht (WP)</div>
               </div>
            </text>
            <identifier>
               <system value="http://fhir.nl/fhir/NamingSystem/uzi-nr-pers"/>
               <value value="333333334"/>
            </identifier>
            <name>
               <extension url="http://hl7.org/fhir/StructureDefinition/humanname-assembly-order">
                  <valueCode value="NL1"/>
               </extension>
               <family value="Calpel">
                  <extension url="http://hl7.org/fhir/StructureDefinition/humanname-own-name">
                     <valueString value="Calpel"/>
                  </extension>
               </family>
               <given value="S.">
                  <extension url="http://hl7.org/fhir/StructureDefinition/iso21090-EN-qualifier">
                     <valueCode value="IN"/>
                  </extension>
               </given>
            </name>
            <address>
               <extension url="http://nictiz.nl/fhir/StructureDefinition/zib-AddressInformation-AddressType">
                  <valueCodeableConcept>
                     <coding>
                        <system value="http://hl7.org/fhir/v3/AddressUse"/>
                        <code value="WP"/>
                        <display value="Werkadres"/>
                     </coding>
                  </valueCodeableConcept>
               </extension>
               <use value="work"/>
               <line value="Valkendael 45 3 hoog">
                  <extension url="http://hl7.org/fhir/StructureDefinition/iso21090-ADXP-streetName">
                     <valueString value="Valkendael"/>
                  </extension>
                  <extension url="http://hl7.org/fhir/StructureDefinition/iso21090-ADXP-houseNumber">
                     <valueString value="45"/>
                  </extension>
                  <extension url="http://hl7.org/fhir/StructureDefinition/iso21090-ADXP-buildingNumberSuffix">
                     <valueString value="3 hoog"/>
                  </extension>
               </line>
               <city value="Maastricht"/>
               <postalCode value="6245HK"/>
            </address>
         </Practitioner>
      </resource>
      <search>
         <mode value="include"/>
      </search>
   </entry>
   <entry>
      <fullUrl value="urn:oid:2.16.528.1.1007.3.3.3999999"/>
      <resource>
         <Organization>
            <meta>
               <profile value="http://fhir.nl/fhir/StructureDefinition/nl-core-organization"/>
            </meta>
            <text>
               <status value="extensions"/>
               <div xmlns="http://www.w3.org/1999/xhtml">
                  <table>
                     <caption>Organisatie. Id: 03999999 (URA)</caption>
                     <tbody>
                        <tr>
                           <th>Naam</th>
                           <td>Test Medisch Centrum</td>
                        </tr>
                        <tr>
                           <th>Type</th>
                           <td>
                              <span title="Zelfstandig behandelcentrum (Z4 - organization-type)">Zelfstandig behandelcentrum</span>
                           </td>
                        </tr>
                        <tr>
                           <th>Adres</th>
                           <td>Valkendael 45, 6245HK Maastricht (WP)</td>
                        </tr>
                     </tbody>
                  </table>
               </div>
            </text>
            <identifier>
               <system value="http://fhir.nl/fhir/NamingSystem/ura"/>
               <value value="03999999"/>
            </identifier>
            <type>
               <coding>
                  <system value="http://nictiz.nl/fhir/NamingSystem/organization-type"/>
                  <code value="Z4"/>
                  <display value="Zelfstandig behandelcentrum"/>
               </coding>
            </type>
            <name value="Test Medisch Centrum"/>
            <address>
               <extension url="http://nictiz.nl/fhir/StructureDefinition/zib-AddressInformation-AddressType">
                  <valueCodeableConcept>
                     <coding>
                        <system value="http://hl7.org/fhir/v3/AddressUse"/>
                        <code value="WP"/>
                        <display value="Werkadres"/>
                     </coding>
                  </valueCodeableConcept>
               </extension>
               <use value="work"/>
               <line value="Valkendael 45">
                  <extension url="http://hl7.org/fhir/StructureDefinition/iso21090-ADXP-streetName">
                     <valueString value="Valkendael"/>
                  </extension>
                  <extension url="http://hl7.org/fhir/StructureDefinition/iso21090-ADXP-houseNumber">
                     <valueString value="45"/>
                  </extension>
               </line>
               <city value="Maastricht"/>
               <postalCode value="6245HK"/>
            </address>
         </Organization>
      </resource>
      <search>
         <mode value="include"/>
      </search>
   </entry>
   <entry>
      <fullUrl value="urn:uuid:8daf1049-1086-11ec-1247-020000000000"/>
      <resource>
         <PractitionerRole>
            <meta>
               <profile value="http://fhir.nl/fhir/StructureDefinition/nl-core-practitionerrole"/>
            </meta>
            <text>
               <status value="extensions"/>
               <div xmlns="http://www.w3.org/1999/xhtml">
                  <table>
                     <caption>Zorgverlenerrol. </caption>
                     <tbody>
                        <tr>
                           <th>Zorgverlener</th>
                           <td>
                              <div>I.N. ter Nist</div>
                              <div>Test Medisch Centrum</div>
                           </td>
                        </tr>
                        <tr>
                           <th>Specialisme</th>
                           <td>
                              <span title="Medisch specialisten, inwendige geneeskunde (0313 - AGB-medisch specialisme)">Medisch specialisten, inwendige geneeskunde</span>
                           </td>
                        </tr>
                     </tbody>
                  </table>
               </div>
            </text>
            <practitioner>
               <reference value="urn:oid:2.16.528.1.1007.3.1.111111112"/>
               <display value="I.N. ter Nist"/>
            </practitioner>
            <organization>
               <reference value="urn:oid:2.16.528.1.1007.3.3.3999999"/>
               <display value="Test Medisch Centrum"/>
            </organization>
            <specialty>
               <coding>
                  <system value="urn:oid:2.16.840.1.113883.2.4.6.7"/>
                  <version value="2017-12-14T00:00:00"/>
                  <code value="0313"/>
                  <display value="Medisch specialisten, inwendige geneeskunde"/>
               </coding>
            </specialty>
         </PractitionerRole>
      </resource>
      <search>
         <mode value="include"/>
      </search>
   </entry>
   <entry>
      <fullUrl value="urn:uuid:8daf1075-1086-11ec-1247-020000000000"/>
      <resource>
         <PractitionerRole>
            <meta>
               <profile value="http://fhir.nl/fhir/StructureDefinition/nl-core-practitionerrole"/>
            </meta>
            <text>
               <status value="extensions"/>
               <div xmlns="http://www.w3.org/1999/xhtml">
                  <table>
                     <caption>Zorgverlenerrol. </caption>
                     <tbody>
                        <tr>
                           <th>Zorgverlener</th>
                           <td>
                              <div>O. Orthopeed</div>
                              <div>Test Medisch Centrum</div>
                           </td>
                        </tr>
                        <tr>
                           <th>Specialisme</th>
                           <td>
                              <span title="Medisch specialisten, orthopedie (0305 - AGB-medisch specialisme)">Medisch specialisten, orthopedie</span>
                           </td>
                        </tr>
                     </tbody>
                  </table>
               </div>
            </text>
            <practitioner>
               <reference value="urn:oid:2.16.528.1.1007.3.1.222222223"/>
               <display value="O. Orthopeed"/>
            </practitioner>
            <organization>
               <reference value="urn:oid:2.16.528.1.1007.3.3.3999999"/>
               <display value="Test Medisch Centrum"/>
            </organization>
            <specialty>
               <coding>
                  <system value="urn:oid:2.16.840.1.113883.2.4.6.7"/>
                  <version value="2017-12-14T00:00:00"/>
                  <code value="0305"/>
                  <display value="Medisch specialisten, orthopedie"/>
               </coding>
            </specialty>
         </PractitionerRole>
      </resource>
      <search>
         <mode value="include"/>
      </search>
   </entry>
   <entry>
      <fullUrl value="urn:uuid:8daf109f-1086-11ec-1247-020000000000"/>
      <resource>
         <PractitionerRole>
            <meta>
               <profile value="http://fhir.nl/fhir/StructureDefinition/nl-core-practitionerrole"/>
            </meta>
            <text>
               <status value="extensions"/>
               <div xmlns="http://www.w3.org/1999/xhtml">
                  <table>
                     <caption>Zorgverlenerrol. </caption>
                     <tbody>
                        <tr>
                           <th>Zorgverlener</th>
                           <td>
                              <div>S. Calpel</div>
                              <div>Test Medisch Centrum</div>
                           </td>
                        </tr>
                        <tr>
                           <th>Specialisme</th>
                           <td>
                              <span title="Medisch specialisten, chirurgie (0303 - AGB-medisch specialisme)">Medisch specialisten, chirurgie</span>
                           </td>
                        </tr>
                     </tbody>
                  </table>
               </div>
            </text>
            <practitioner>
               <reference value="urn:oid:2.16.528.1.1007.3.1.333333334"/>
               <display value="S. Calpel"/>
            </practitioner>
            <organization>
               <reference value="urn:oid:2.16.528.1.1007.3.3.3999999"/>
               <display value="Test Medisch Centrum"/>
            </organization>
            <specialty>
               <coding>
                  <system value="urn:oid:2.16.840.1.113883.2.4.6.7"/>
                  <version value="2017-12-14T00:00:00"/>
                  <code value="0303"/>
                  <display value="Medisch specialisten, chirurgie"/>
               </coding>
            </specialty>
         </PractitionerRole>
      </resource>
      <search>
         <mode value="include"/>
      </search>
   </entry>
   <entry>
      <fullUrl value="urn:uuid:8daf10e2-1086-11ec-1247-020000000000"/>
      <resource>
         <RelatedPerson>
            <meta>
               <profile value="http://fhir.nl/fhir/StructureDefinition/nl-core-relatedperson"/>
            </meta>
            <text>
               <status value="extensions"/>
               <div xmlns="http://www.w3.org/1999/xhtml">
                  <div>Peter P.J. van den Herik (Peter)</div>
                  <div>
                     <a href="tel:06-12345670">06-12345670</a> (Tel Mobiel), <a href="mailto:pjvandenherik123@hotmail.com">pjvandenherik123@hotmail.com</a> (E-mail Privé)</div>
                  <div>Knolweg 1001 b, 9999XX Stitswerd (Bezoek)</div>
                  <div>
                     <span title="Eerste relatie/contactpersoon (1 - RoleCodeLijst (COD472-VEKT))">Eerste relatie/contactpersoon</span> van Maria Christina M. Marieke van XXX_Stalewska</div>
               </div>
            </text>
            <extension url="http://fhir.nl/fhir/StructureDefinition/nl-core-relatedperson-role">
               <valueCodeableConcept>
                  <coding>
                     <system value="urn:oid:2.16.840.1.113883.2.4.3.11.22.472"/>
                     <code value="1"/>
                     <display value="Eerste relatie/contactpersoon"/>
                  </coding>
               </valueCodeableConcept>
            </extension>
            <patient>
               <reference value="urn:uuid:8daefd8b-1086-11ec-1247-020000000000"/>
               <display value="Maria Christina M. Marieke van XXX_Stalewska"/>
            </patient>
            <name>
               <extension url="http://hl7.org/fhir/StructureDefinition/humanname-assembly-order">
                  <valueCode value="NL1"/>
               </extension>
               <family value="van den Herik">
                  <extension url="http://hl7.org/fhir/StructureDefinition/humanname-own-prefix">
                     <valueString value="van den"/>
                  </extension>
                  <extension url="http://hl7.org/fhir/StructureDefinition/humanname-own-name">
                     <valueString value="Herik"/>
                  </extension>
                  <extension url="http://hl7.org/fhir/StructureDefinition/humanname-partner-prefix">
                     <valueString value="van"/>
                  </extension>
                  <extension url="http://hl7.org/fhir/StructureDefinition/humanname-partner-name">
                     <valueString value="XXX_Stalewska"/>
                  </extension>
               </family>
               <given value="Peter">
                  <extension url="http://hl7.org/fhir/StructureDefinition/iso21090-EN-qualifier">
                     <valueCode value="BR"/>
                  </extension>
               </given>
               <given value="P.J.">
                  <extension url="http://hl7.org/fhir/StructureDefinition/iso21090-EN-qualifier">
                     <valueCode value="IN"/>
                  </extension>
               </given>
               <given value="Peter">
                  <extension url="http://hl7.org/fhir/StructureDefinition/iso21090-EN-qualifier">
                     <valueCode value="CL"/>
                  </extension>
               </given>
            </name>
            <telecom>
               <system value="phone">
                  <extension url="http://nictiz.nl/fhir/StructureDefinition/code-specification">
                     <valueCodeableConcept>
                        <coding>
                           <system value="http://hl7.org/fhir/v3/AddressUse"/>
                           <code value="MC"/>
                           <display value="Mobiel telefoonnummer"/>
                        </coding>
                     </valueCodeableConcept>
                  </extension>
               </system>
               <value value="06-12345670"/>
               <use value="mobile">
                  <extension url="http://nictiz.nl/fhir/StructureDefinition/code-specification">
                     <valueCodeableConcept>
                        <coding>
                           <system value="http://hl7.org/fhir/v3/AddressUse"/>
                           <code value="WP"/>
                           <display value="Zakelijk telefoonnummer"/>
                        </coding>
                     </valueCodeableConcept>
                  </extension>
               </use>
            </telecom>
            <telecom>
               <system value="email"/>
               <value value="pjvandenherik123@hotmail.com"/>
               <use value="home">
                  <extension url="http://nictiz.nl/fhir/StructureDefinition/code-specification">
                     <valueCodeableConcept>
                        <coding>
                           <system value="http://hl7.org/fhir/v3/AddressUse"/>
                           <code value="HP"/>
                           <display value="Privé e-mailadres"/>
                        </coding>
                     </valueCodeableConcept>
                  </extension>
               </use>
            </telecom>
            <address>
               <extension url="http://nictiz.nl/fhir/StructureDefinition/zib-AddressInformation-AddressType">
                  <valueCodeableConcept>
                     <coding>
                        <system value="http://hl7.org/fhir/v3/AddressUse"/>
                        <code value="PHYS"/>
                        <display value="Woon-/verblijfadres"/>
                     </coding>
                  </valueCodeableConcept>
               </extension>
               <extension url="http://hl7.org/fhir/StructureDefinition/iso21090-AD-use">
                  <valueCode value="PHYS"/>
               </extension>
               <use value="home"/>
               <type value="physical"/>
               <line value="Knolweg 1001 b">
                  <extension url="http://hl7.org/fhir/StructureDefinition/iso21090-ADXP-streetName">
                     <valueString value="Knolweg"/>
                  </extension>
                  <extension url="http://hl7.org/fhir/StructureDefinition/iso21090-ADXP-houseNumber">
                     <valueString value="1001"/>
                  </extension>
                  <extension url="http://hl7.org/fhir/StructureDefinition/iso21090-ADXP-buildingNumberSuffix">
                     <valueString value="b"/>
                  </extension>
               </line>
               <city value="Stitswerd"/>
               <postalCode value="9999XX"/>
            </address>
         </RelatedPerson>
      </resource>
      <search>
         <mode value="include"/>
      </search>
   </entry>
</Bundle>
