<Bundle xmlns="http://hl7.org/fhir">
   <id value="mg-mp-smg-tst-MVE-Scenarioset7-v20-7-2"/>
   <type value="transaction"/>
   <entry>
      <fullUrl value="urn:uuid:c33f140a-6a95-11ec-0000-020000000000"/>
      <resource>
         <MedicationDispense>
            <meta>
               <profile value="http://nictiz.nl/fhir/StructureDefinition/mp-MedicationDispense"/>
            </meta>
            <extension url="http://nictiz.nl/fhir/StructureDefinition/ext-PharmaceuticalTreatment.Identifier">
               <valueIdentifier>
                  <system value="urn:oid:2.16.840.1.113883.2.4.3.11.999.77.1.1"/>
                  <value value="MBH_200_magistraalactieveingredient"/>
               </valueIdentifier>
            </extension>
            <identifier>
               <system value="urn:oid:2.16.840.1.113883.2.4.3.11.999.77.373784005.1"/>
               <value value="MBH_200_magistraalactieveingredient_MVE"/>
            </identifier>
            <status value="completed"/>
            <category>
               <coding>
                  <system value="http://snomed.info/sct"/>
                  <code value="373784005"/>
                  <display value="verstrekken van medicatie"/>
               </coding>
            </category>
            <medicationReference>
               <reference value="urn:uuid:c33f1428-6a95-11ec-0000-020000000000"/>
               <type value="Medication"/>
               <display value="overig"/>
            </medicationReference>
            <subject>
               <reference value="urn:uuid:c33f13b0-6a95-11ec-0000-020000000000"/>
               <type value="Patient"/>
               <display value="Patient, G. XXX_Hess"/>
            </subject>
            <performer>
               <actor>
                  <reference value="urn:uuid:c33f13ce-6a95-11ec-0000-020000000000"/>
                  <type value="Organization"/>
                  <display value="Healthcare provider (organization), Apotheek De Gulle Gaper"/>
               </actor>
            </performer>
            <authorizingPrescription>
               <type value="MedicationRequest"/>
               <identifier>
                  <system value="urn:oid:2.16.840.1.113883.2.4.3.11.999.77.52711000146108.1"/>
                  <value value="MBH_200_magistraalactieveingredient_VV"/>
               </identifier>
               <display value="relatie naar verstrekkingsverzoek met identificatie: MBH_200_magistraalactieveingredient_VV || 2.16.840.1.113883.2.4.3.11.999.77.52711000146108.1"/>
            </authorizingPrescription>
            <quantity>
               <extension url="http://hl7.org/fhir/StructureDefinition/iso21090-PQ-translation">
                  <valueQuantity>
                     <value value="100"/>
                     <unit value="gram"/>
                     <system value="urn:oid:2.16.840.1.113883.2.4.4.1.900.2"/>
                     <code value="215"/>
                  </valueQuantity>
               </extension>
               <value value="100"/>
               <unit value="gram"/>
               <system value="http://unitsofmeasure.org"/>
               <code value="g"/>
            </quantity>
            <whenHandedOver value="${DATE, T, D, +0}T13:05:00+02:00"/>
         </MedicationDispense>
      </resource>
      <request>
         <method value="POST"/>
         <url value="MedicationDispense"/>
      </request>
   </entry>
   <entry>
      <fullUrl value="urn:uuid:c33f13b0-6a95-11ec-0000-020000000000"/>
      <resource>
         <Patient>
            <meta>
               <profile value="http://nictiz.nl/fhir/StructureDefinition/nl-core-Patient"/>
            </meta>
            <identifier>
               <system value="http://fhir.nl/fhir/NamingSystem/bsn"/>
               <value value="999900614"/>
            </identifier>
            <name>
               <extension url="http://hl7.org/fhir/StructureDefinition/humanname-assembly-order">
                  <valueCode value="NL1"/>
               </extension>
               <use value="official"/>
               <text value="G. XXX_Hess"/>
               <family value="XXX_Hess">
                  <extension url="http://hl7.org/fhir/StructureDefinition/humanname-own-name">
                     <valueString value="XXX_Hess"/>
                  </extension>
               </family>
               <given value="G.">
                  <extension url="http://hl7.org/fhir/StructureDefinition/iso21090-EN-qualifier">
                     <valueCode value="IN"/>
                  </extension>
               </given>
            </name>
            <gender value="male">
               <extension url="http://nictiz.nl/fhir/StructureDefinition/ext-CodeSpecification">
                  <valueCodeableConcept>
                     <coding>
                        <system value="http://terminology.hl7.org/CodeSystem/v3-AdministrativeGender"/>
                        <code value="M"/>
                        <display value="Man"/>
                     </coding>
                  </valueCodeableConcept>
               </extension>
            </gender>
            <birthDate value="1963-11-03"/>
         </Patient>
      </resource>
      <request>
         <method value="POST"/>
         <url value="Patient"/>
      </request>
   </entry>
   <entry>
      <fullUrl value="urn:uuid:c33f13ce-6a95-11ec-0000-020000000000"/>
      <resource>
         <Organization>
            <meta>
               <profile value="http://nictiz.nl/fhir/StructureDefinition/nl-core-HealthcareProvider-Organization"/>
            </meta>
            <identifier>
               <system value="http://fhir.nl/fhir/NamingSystem/ura"/>
               <value value="01236578"/>
            </identifier>
            <name value="Apotheek De Gulle Gaper"/>
         </Organization>
      </resource>
      <request>
         <method value="POST"/>
         <url value="Organization"/>
      </request>
   </entry>
   <entry>
      <fullUrl value="urn:uuid:c33f1428-6a95-11ec-0000-020000000000"/>
      <resource>
         <Medication>
            <meta>
               <profile value="http://nictiz.nl/fhir/StructureDefinition/nl-core-PharmaceuticalProduct"/>
            </meta>
            <extension url="http://nictiz.nl/fhir/StructureDefinition/ext-PharmaceuticalProduct.Description">
               <valueString value="Titel: Vaseline 20% in cetomacrogolcrème FNA Regel 1: cetomacrogolcreme 80 gr"/>
            </extension>
            <code>
               <coding>
                  <system value="http://terminology.hl7.org/CodeSystem/v3-NullFlavor"/>
                  <code value="OTH"/>
                  <display value="overig"/>
               </coding>
               <text value="Vaseline 20% in cetomacrogolcrème FNA"/>
            </code>
            <ingredient>
               <itemCodeableConcept>
                  <coding>
                     <system value="urn:oid:2.16.840.1.113883.2.4.4.7"/>
                     <code value="457590"/>
                     <display value="CETOMACROGOLCREME FNA"/>
                  </coding>
               </itemCodeableConcept>
               <strength>
                  <numerator>
                     <extension url="http://hl7.org/fhir/StructureDefinition/iso21090-PQ-translation">
                        <valueQuantity>
                           <value value="80"/>
                           <unit value="gram"/>
                           <system value="urn:oid:2.16.840.1.113883.2.4.4.1.900.2"/>
                           <code value="215"/>
                        </valueQuantity>
                     </extension>
                     <value value="80"/>
                     <unit value="gram"/>
                     <system value="http://unitsofmeasure.org"/>
                     <code value="g"/>
                  </numerator>
                  <denominator>
                     <extension url="http://hl7.org/fhir/StructureDefinition/iso21090-PQ-translation">
                        <valueQuantity>
                           <value value="100"/>
                           <unit value="gram"/>
                           <system value="urn:oid:2.16.840.1.113883.2.4.4.1.900.2"/>
                           <code value="215"/>
                        </valueQuantity>
                     </extension>
                     <value value="100"/>
                     <unit value="gram"/>
                     <system value="http://unitsofmeasure.org"/>
                     <code value="g"/>
                  </denominator>
               </strength>
            </ingredient>
         </Medication>
      </resource>
      <request>
         <method value="POST"/>
         <url value="Medication"/>
      </request>
   </entry>
</Bundle>
